File: app/XRD_data_set_lit.txt
5.000	1.00
5.040	1.00
5.080	1.00
5.120	1.00
5.160	1.00
5.200	1.00
5.240	1.00
5.280	1.00
5.320	1.00
5.360	1.00
5.400	1.00
5.440	1.00
5.480	1.00
5.520	1.00
5.560	1.00
5.600	1.00
5.640	1.00
5.680	1.00
5.720	1.00
5.760	1.00
5.800	1.00
5.840	1.00
5.880	1.00
5.920	1.00
5.960	1.00
6.000	1.00
6.040	1.00
6.080	1.00
6.120	1.00
6.160	1.00
6.200	1.00
6.240	1.00
6.280	1.00
6.320	1.00
6.360	1.00
6.400	1.00
6.440	1.00
6.480	1.00
6.520	1.00
6.560	1.00
6.600	1.00
6.640	1.00
6.680	1.00
6.720	1.00
6.760	1.00
6.800	1.00
6.840	1.00
6.880	1.00
6.920	1.00
6.960	1.00
7.000	1.00
7.040	1.00
7.080	1.00
7.120	1.00
7.160	1.00
7.200	1.00
7.240	1.00
7.280	1.00
7.320	1.00
7.360	1.00
7.400	1.00
7.440	1.00
7.480	1.00
7.520	1.00
7.560	1.00
7.600	1.00
7.640	1.00
7.680	1.00
7.720	1.00
7.760	1.00
7.800	1.00
7.840	1.00
7.880	1.00
7.920	1.00
7.960	1.00
8.000	1.00
8.040	1.00
8.080	1.00
8.120	1.00
8.160	1.00
8.200	1.00
8.240	1.00
8.280	1.00
8.320	1.00
8.360	1.00
8.400	1.00
8.440	1.00
8.480	1.00
8.520	1.00
8.560	11.60
8.600	15.80
8.640	23.09
8.680	37.34
8.720	71.09
8.760	225.88
8.800	1430.13
8.840	1129.91
8.880	172.43
8.920	63.02
8.960	34.23
9.000	21.58
9.040	14.97
9.080	11.09
9.120	1.00
9.160	1.00
9.200	1.00
9.240	1.00
9.280	1.00
9.320	1.00
9.360	1.00
9.400	1.00
9.440	1.00
9.480	1.00
9.520	1.00
9.560	1.00
9.600	1.00
9.640	1.00
9.680	1.00
9.720	1.00
9.760	1.00
9.800	1.00
9.840	1.00
9.880	1.00
9.920	1.00
9.960	1.00
10.000	1.00
10.040	1.00
10.080	1.00
10.120	1.00
10.160	1.00
10.200	1.00
10.240	1.00
10.280	1.00
10.320	1.00
10.360	1.00
10.400	1.00
10.440	1.00
10.480	1.00
10.520	1.00
10.560	1.00
10.600	33.72
10.640	47.12
10.680	70.77
10.720	118.37
10.760	239.96
10.800	1002.60
10.840	4410.61
10.880	2756.63
10.920	537.70
10.960	177.12
11.000	95.31
11.040	59.70
11.080	41.00
11.120	29.98
11.160	1.00
11.200	1.00
11.240	1.00
11.280	1.00
11.320	1.00
11.360	1.00
11.400	1.00
11.440	1.00
11.480	1.00
11.520	1.00
11.560	1.00
11.600	1.00
11.640	1.00
11.680	1.00
11.720	1.00
11.760	1.00
11.800	1.00
11.840	1.00
11.880	1.00
11.920	1.00
11.960	1.00
12.000	1.00
12.040	1.00
12.080	1.00
12.120	1.00
12.160	75.28
12.200	102.80
12.240	148.87
12.280	309.08
12.320	525.89
12.360	1190.50
12.400	6357.02
12.440	13124.03
12.480	4632.65
12.520	11049.68
12.560	6058.65
12.600	1143.07
12.640	500.30
12.680	295.71
12.720	131.26
12.760	90.36
12.800	66.03
12.840	1.00
12.880	1.00
12.920	1.00
12.960	1.00
13.000	1.00
13.040	1.00
13.080	1.00
13.120	1.00
13.160	1.00
13.200	1.00
13.240	1.00
13.280	1.00
13.320	1.00
13.360	1.00
13.400	1.00
13.440	1.00
13.480	1.00
13.520	1.00
13.560	1.00
13.600	1.00
13.640	1.00
13.680	1.00
13.720	1.00
13.760	1.00
13.800	1.00
13.840	1.00
13.880	1.00
13.920	1.00
13.960	1.00
14.000	1.00
14.040	1.00
14.080	1.00
14.120	1.00
14.160	1.00
14.200	1.00
14.240	1.00
14.280	1.00
14.320	1.00
14.360	1.00
14.400	1.00
14.440	1.00
14.480	1.00
14.520	1.00
14.560	1.00
14.600	1.00
14.640	1.00
14.680	1.00
14.720	1.00
14.760	1.00
14.800	1.00
14.840	1.00
14.880	1.00
14.920	1.00
14.960	1.00
15.000	1.00
15.040	1.00
15.080	1.00
15.120	1.00
15.160	1.00
15.200	1.00
15.240	1.00
15.280	1.00
15.320	1.00
15.360	1.00
15.400	1.00
15.440	1.00
15.480	1.00
15.520	1.00
15.560	1.00
15.600	1.00
15.640	1.00
15.680	1.00
15.720	1.00
15.760	1.00
15.800	1.00
15.840	1.00
15.880	1.00
15.920	1.00
15.960	1.00
16.000	1.00
16.040	1.00
16.080	1.00
16.120	1.00
16.160	1.00
16.200	1.00
16.240	1.00
16.280	93.27
16.320	190.30
16.360	272.38
16.400	422.79
16.440	747.24
16.480	1960.66
16.520	9987.82
16.560	14960.88
16.600	13175.25
16.640	4209.68
16.680	1044.09
16.720	523.83
16.760	321.59
16.800	217.95
16.840	157.69
16.880	62.78
16.920	1.00
16.960	1.00
17.000	1.00
17.040	1.00
17.080	1.00
17.120	1.00
17.160	1.00
17.200	1.00
17.240	1.00
17.280	1.00
17.320	1.00
17.360	1.00
17.400	41.57
17.440	55.62
17.480	78.37
17.520	158.74
17.560	253.53
17.600	490.00
17.640	1936.67
17.680	7292.33
17.720	3521.66
17.760	1613.21
17.800	5794.10
17.840	6076.64
17.880	1213.46
17.920	406.48
17.960	226.62
18.000	112.28
18.040	76.02
18.080	54.92
18.120	41.59
18.160	1.00
18.200	1.00
18.240	1.00
18.280	1.00
18.320	1.00
18.360	1.00
18.400	1.00
18.440	1.00
18.480	1.00
18.520	1.00
18.560	1.00
18.600	1.00
18.640	1.00
18.680	1.00
18.720	1.00
18.760	1.00
18.800	1.00
18.840	1.00
18.880	1.00
18.920	1.00
18.960	1.00
19.000	1.00
19.040	1.00
19.080	1.00
19.120	1.00
19.160	1.00
19.200	1.00
19.240	1.00
19.280	1.00
19.320	1.00
19.360	1.00
19.400	1.00
19.440	2.36
19.480	2.82
19.520	3.57
19.560	36.02
19.600	48.92
19.640	72.02
19.680	140.57
19.720	364.86
19.760	395.76
19.800	947.93
19.840	4570.12
19.880	3921.20
19.920	762.51
19.960	252.10
20.000	134.43
20.040	82.69
20.080	56.43
20.120	41.02
20.160	31.23
20.200	1.11
20.240	1.00
20.280	1.00
20.320	1.00
20.360	1.00
20.400	1.00
20.440	43.80
20.480	58.31
20.520	81.63
20.560	123.50
20.600	204.95
20.640	411.05
20.680	1636.79
20.720	6837.58
20.760	4051.60
20.800	779.59
20.840	400.72
20.880	335.78
20.920	141.09
20.960	79.90
21.000	56.10
21.040	42.07
21.080	3.13
21.120	2.52
21.160	2.14
21.200	1.00
21.240	1.00
21.280	1.00
21.320	1.00
21.360	1.00
21.400	1.00
21.440	1.00
21.480	12.89
21.520	16.67
21.560	46.88
21.600	65.29
21.640	97.70
21.680	163.66
21.720	380.60
21.760	1614.35
21.800	3132.23
21.840	4388.25
21.880	1856.29
21.920	399.73
21.960	177.36
22.000	104.80
22.040	69.35
22.080	49.40
22.120	27.00
22.160	20.88
22.200	1.00
22.240	1.00
22.280	1.00
22.320	1.00
22.360	1.00
22.400	1.00
22.440	1.00
22.480	1.00
22.520	1.00
22.560	1.00
22.600	1.00
22.640	1.00
22.680	1.00
22.720	1.00
22.760	1.00
22.800	1.00
22.840	1.00
22.880	1.00
22.920	1.00
22.960	1.00
23.000	1.00
23.040	1.00
23.080	1.00
23.120	1.00
23.160	1.00
23.200	1.00
23.240	1.00
23.280	1.00
23.320	1.00
23.360	1.00
23.400	1.00
23.440	1.00
23.480	1.00
23.520	1.00
23.560	1.00
23.600	1.00
23.640	1.00
23.680	1.00
23.720	1.00
23.760	1.00
23.800	1.00
23.840	1.00
23.880	1.00
23.920	1.00
23.960	1.00
24.000	12.41
24.040	45.88
24.080	60.82
24.120	84.83
24.160	127.28
24.200	216.30
24.240	562.42
24.280	2042.11
24.320	3355.38
24.360	6174.45
24.400	2406.50
24.440	524.52
24.480	234.90
24.520	138.81
24.560	91.70
24.600	65.18
24.640	40.34
24.680	31.18
24.720	3.28
24.760	4.04
24.800	5.28
24.840	7.42
24.880	11.67
24.920	29.74
24.960	95.79
25.000	348.37
25.040	234.96
25.080	76.87
25.120	81.78
25.160	254.21
25.200	1025.36
25.240	763.44
25.280	158.33
25.320	55.41
25.360	29.49
25.400	18.86
25.440	13.21
25.480	9.86
25.520	7.71
25.560	1.00
25.600	1.00
25.640	1.00
25.680	1.00
25.720	1.00
25.760	1.00
25.800	1.00
25.840	1.00
25.880	1.00
25.920	1.00
25.960	1.00
26.000	1.00
26.040	1.00
26.080	1.00
26.120	1.00
26.160	1.00
26.200	1.00
26.240	1.00
26.280	1.00
26.320	1.00
26.360	2.81
26.400	3.41
26.440	4.33
26.480	6.37
26.520	9.45
26.560	16.31
26.600	46.35
26.640	211.82
26.680	264.79
26.720	72.75
26.760	50.57
26.800	104.46
26.840	48.57
26.880	13.33
26.920	7.16
26.960	4.99
27.000	2.34
27.040	73.32
27.080	96.07
27.120	131.98
27.160	192.65
27.200	340.86
27.240	616.09
27.280	1898.07
27.320	8539.53
27.360	10104.69
27.400	2778.87
27.440	1518.85
27.480	3358.60
27.520	7436.40
27.560	7451.29
27.600	17861.04
27.640	10932.40
27.680	2371.96
27.720	886.24
27.760	610.67
27.800	466.82
27.840	422.37
27.880	500.47
27.920	655.87
27.960	955.35
28.000	2608.06
28.040	11750.47
28.080	16482.86
28.120	5173.25
28.160	5717.68
28.200	14200.42
28.240	6635.26
28.280	1539.51
28.320	691.27
28.360	422.96
28.400	288.27
28.440	137.61
28.480	101.42
28.520	77.87
28.560	1.00
28.600	1.00
28.640	1.00
28.680	1.00
28.720	1.00
28.760	1.00
28.800	1.00
28.840	1.00
28.880	1.00
28.920	1.00
28.960	1.00
29.000	1.00
29.040	1.00
29.080	1.00
29.120	1.00
29.160	1.00
29.200	1.00
29.240	1.00
29.280	1.00
29.320	1.00
29.360	1.00
29.400	1.00
29.440	1.00
29.480	1.00
29.520	1.00
29.560	1.00
29.600	1.00
29.640	1.00
29.680	1.00
29.720	1.00
29.760	1.00
29.800	1.00
29.840	1.00
29.880	1.00
29.920	1.00
29.960	1.00
30.000	1.00
30.040	1.00
30.080	140.77
30.120	182.77
30.160	246.90
30.200	351.90
30.240	541.19
30.280	941.46
30.320	2400.52
30.360	10104.21
30.400	21000.00
30.440	12689.53
30.480	3007.77
30.520	1058.99
30.560	590.36
30.600	377.94
30.640	262.61
30.680	193.39
30.720	149.15
30.760	4.44
30.800	8.79
30.840	35.36
30.880	86.66
30.920	37.47
30.960	11.13
31.000	14.26
31.040	35.25
31.080	20.92
31.120	5.89
31.160	3.12
31.200	2.32
31.240	1.53
31.280	1.37
31.320	1.27
31.360	1.20
31.400	1.00
31.440	1.00
31.480	1.00
31.520	1.00
31.560	1.00
31.600	1.00
31.640	1.00
31.680	1.00
31.720	1.13
31.760	1.17
31.800	1.22
31.840	1.31
31.880	1.46
31.920	5.17
31.960	25.76
32.000	36.27
32.040	61.69
32.080	75.57
32.120	90.51
32.160	146.85
32.200	344.65
32.240	1222.01
32.280	3251.79
32.320	2982.01
32.360	752.11
32.400	235.08
32.440	132.66
32.480	134.82
32.520	138.53
32.560	162.08
32.600	251.21
32.640	522.67
32.680	1491.30
32.720	2229.32
32.760	4171.83
32.800	7204.05
32.840	3662.49
32.880	3346.45
32.920	7816.81
32.960	9193.09
33.000	3339.38
33.040	1539.98
33.080	603.30
33.120	313.85
33.160	180.05
33.200	131.20
33.240	116.10
33.280	108.72
33.320	71.80
33.360	125.88
33.400	399.71
33.440	1043.25
33.480	727.77
33.520	1233.48
33.560	2921.37
33.600	1335.24
33.640	307.66
33.680	129.68
33.720	76.71
33.760	50.93
33.800	31.83
33.840	23.73
33.880	18.43
33.920	1.00
33.960	1.00
34.000	1.00
34.040	1.00
34.080	1.00
34.120	1.00
34.160	1.00
34.200	1.00
34.240	1.00
34.280	1.00
34.320	1.00
34.360	1.00
34.400	1.00
34.440	1.00
34.480	1.00
34.520	1.00
34.560	1.00
34.600	1.00
34.640	1.00
34.680	1.00
34.720	1.00
34.760	1.00
34.800	26.37
34.840	33.27
34.880	43.40
34.920	59.11
34.960	85.35
35.000	145.38
35.040	256.55
35.080	732.19
35.120	3068.17
35.160	4636.03
35.200	1514.57
35.240	528.01
35.280	619.26
35.320	1786.79
35.360	2739.93
35.400	3048.04
35.440	1965.29
35.480	530.32
35.520	195.32
35.560	121.05
35.600	90.37
35.640	80.03
35.680	87.13
35.720	121.80
35.760	416.04
35.800	1326.66
35.840	944.68
35.880	229.16
35.920	85.78
35.960	59.26
36.000	63.18
36.040	160.14
36.080	483.91
36.120	347.56
36.160	88.39
36.200	27.59
36.240	15.53
36.280	10.19
36.320	7.31
36.360	5.59
36.400	4.49
36.440	3.74
36.480	1.00
36.520	1.00
36.560	11.27
36.600	14.04
36.640	18.10
36.680	29.29
36.720	41.10
36.760	62.39
36.800	110.65
36.840	299.54
36.880	1137.38
36.920	1907.66
36.960	828.88
37.000	797.57
37.040	889.39
37.080	341.18
37.120	277.03
37.160	200.44
37.200	221.19
37.240	257.54
37.280	91.04
37.320	43.46
37.360	37.98
37.400	40.71
37.440	55.89
37.480	90.21
37.520	211.64
37.560	884.52
37.600	1894.41
37.640	825.67
37.680	317.63
37.720	489.46
37.760	326.26
37.800	99.81
37.840	52.01
37.880	61.71
37.920	66.57
37.960	33.42
38.000	14.08
38.040	13.70
38.080	16.74
38.120	23.87
38.160	68.10
38.200	249.07
38.240	296.95
38.280	180.29
38.320	219.87
38.360	106.77
38.400	32.94
38.440	14.94
38.480	9.54
38.520	6.87
38.560	5.30
38.600	2.79
38.640	2.37
38.680	1.19
38.720	1.00
38.760	1.00
38.800	1.00
38.840	1.00
38.880	1.00
38.920	1.00
38.960	1.00
39.000	1.00
39.040	1.00
39.080	1.00
39.120	1.00
39.160	1.00
39.200	3.16
39.240	3.74
39.280	4.59
39.320	5.91
39.360	8.09
39.400	12.08
39.440	20.86
39.480	56.97
39.520	233.67
39.560	381.46
39.600	135.04
39.640	34.34
39.680	16.23
39.720	10.19
39.760	7.14
39.800	5.41
39.840	4.37
39.880	3.72
39.920	3.95
39.960	2.41
40.000	3.65
40.040	9.27
40.080	16.67
40.120	9.86
40.160	7.96
40.200	16.42
40.240	62.64
40.280	112.54
40.320	44.60
40.360	12.89
40.400	9.92
40.440	20.26
40.480	23.25
40.520	8.50
40.560	3.62
40.600	2.55
40.640	2.08
40.680	1.34
40.720	1.24
40.760	1.18
40.800	1.14
40.840	1.00
40.880	1.20
40.920	1.25
40.960	1.32
41.000	1.43
41.040	15.84
41.080	20.19
41.120	31.19
41.160	46.18
41.200	75.69
41.240	133.37
41.280	205.75
41.320	635.06
41.360	2051.72
41.400	1870.79
41.440	1028.92
41.480	942.24
41.520	705.40
41.560	392.85
41.600	143.86
41.640	87.55
41.680	92.51
41.720	162.62
41.760	188.07
41.800	253.80
41.840	618.84
41.880	898.59
41.920	418.30
41.960	258.25
42.000	315.54
42.040	155.06
42.080	67.25
42.120	92.73
42.160	262.93
42.200	277.88
42.240	87.77
42.280	26.60
42.320	15.13
42.360	11.58
42.400	12.47
42.440	31.50
42.480	44.93
42.520	17.62
42.560	4.75
42.600	2.72
42.640	2.03
42.680	1.69
42.720	1.49
42.760	1.37
42.800	1.28
42.840	1.23
42.880	1.00
42.920	1.00
42.960	1.00
43.000	1.00
43.040	1.00
43.080	1.00
43.120	1.00
43.160	1.00
43.200	1.00
43.240	1.00
43.280	1.00
43.320	1.76
43.360	1.97
43.400	2.28
43.440	4.48
43.480	5.74
43.520	12.47
43.560	18.35
43.600	40.52
43.640	113.59
43.680	138.11
43.720	90.43
43.760	178.12
43.800	438.22
43.840	642.92
43.880	846.51
43.920	401.04
43.960	284.99
44.000	176.56
44.040	75.95
44.080	66.30
44.120	151.40
44.160	436.05
44.200	378.63
44.240	117.04
44.280	47.28
44.320	44.79
44.360	96.85
44.400	293.33
44.440	307.55
44.480	133.90
44.520	166.49
44.560	142.02
44.600	45.52
44.640	17.76
44.680	11.16
44.720	8.30
44.760	6.85
44.800	5.63
44.840	11.35
44.880	14.27
44.920	20.30
44.960	41.91
45.000	114.41
45.040	128.22
45.080	85.98
45.120	141.12
45.160	516.23
45.200	1186.30
45.240	650.32
45.280	193.61
45.320	161.50
45.360	396.84
45.400	501.05
45.440	227.52
45.480	103.34
45.520	79.91
45.560	44.43
45.600	25.90
45.640	25.63
45.680	35.75
45.720	48.79
45.760	77.07
45.800	180.65
45.840	677.92
45.880	1291.73
45.920	616.34
45.960	286.74
46.000	595.53
46.040	970.75
46.080	469.79
46.120	166.01
46.160	132.31
46.200	258.71
46.240	320.75
46.280	329.14
46.320	724.69
46.360	570.31
46.400	272.69
46.440	180.87
46.480	69.12
46.520	30.19
46.560	19.07
46.600	13.66
46.640	9.28
46.680	7.35
46.720	6.03
46.760	2.01
46.800	1.81
46.840	1.00
46.880	1.00
46.920	1.00
46.960	1.00
47.000	2.49
47.040	2.85
47.080	3.34
47.120	4.07
47.160	7.96
47.200	10.50
47.240	14.87
47.280	24.01
47.320	59.33
47.360	201.63
47.400	307.59
47.440	150.13
47.480	163.62
47.520	449.22
47.560	436.05
47.600	142.99
47.640	56.27
47.680	49.97
47.720	68.67
47.760	113.94
47.800	188.56
47.840	306.59
47.880	649.81
47.920	493.44
47.960	146.84
48.000	48.31
48.040	26.34
48.080	17.22
48.120	12.17
48.160	9.19
48.200	6.74
48.240	5.51
48.280	3.26
48.320	1.00
48.360	1.00
48.400	3.08
48.440	3.58
48.480	4.30
48.520	5.36
48.560	7.01
48.600	10.62
48.640	19.90
48.680	35.18
48.720	101.83
48.760	307.88
48.800	355.74
48.840	144.93
48.880	83.15
48.920	138.73
48.960	272.83
49.000	521.68
49.040	838.14
49.080	573.27
49.120	677.05
49.160	521.40
49.200	363.53
49.240	214.52
49.280	111.35
49.320	107.55
49.360	201.04
49.400	685.88
49.440	1412.39
49.480	792.01
49.520	283.42
49.560	143.83
49.600	206.89
49.640	504.36
49.680	466.78
49.720	198.35
49.760	164.19
49.800	137.20
49.840	67.78
49.880	107.17
49.920	191.28
49.960	99.99
50.000	30.69
50.040	14.66
50.080	7.45
50.120	5.36
50.160	4.08
50.200	2.80
50.240	2.38
50.280	2.10
50.320	1.89
50.360	1.00
50.400	1.00
50.440	1.00
50.480	1.00
50.520	1.00
50.560	1.00
50.600	1.00
50.640	1.00
50.680	1.00
50.720	10.27
50.760	13.29
50.800	17.13
50.840	22.53
50.880	31.14
50.920	46.07
50.960	90.06
51.000	188.19
51.040	647.53
51.080	1583.36
51.120	1159.95
51.160	486.33
51.200	267.78
51.240	340.21
51.280	1049.90
51.320	2366.13
51.360	1480.02
51.400	536.93
51.440	440.96
51.480	351.19
51.520	175.71
51.560	133.13
51.600	153.63
51.640	230.94
51.680	562.27
51.720	2021.01
51.760	3760.50
51.800	1869.39
51.840	504.21
51.880	196.56
51.920	114.14
51.960	75.22
52.000	53.34
52.040	39.90
52.080	31.12
52.120	25.13
52.160	24.87
52.200	8.15
52.240	13.14
52.280	26.46
52.320	44.64
52.360	38.14
52.400	38.02
52.440	57.33
52.480	131.71
52.520	447.97
52.560	921.10
52.600	755.83
52.640	559.57
52.680	349.59
52.720	150.98
52.760	78.46
52.800	63.10
52.840	62.81
52.880	78.77
52.920	131.64
52.960	236.50
53.000	431.14
53.040	1075.17
53.080	1794.44
53.120	2014.21
53.160	1072.08
53.200	837.10
53.240	608.00
53.280	810.05
53.320	2042.55
53.360	2045.79
53.400	916.36
53.440	918.94
53.480	802.23
53.520	522.36
53.560	902.40
53.600	912.24
53.640	329.60
53.680	113.84
53.720	64.18
53.760	33.13
53.800	23.53
53.840	17.71
53.880	10.27
53.920	8.24
53.960	6.80
54.000	1.00
54.040	1.00
54.080	5.52
54.120	6.57
54.160	8.04
54.200	10.17
54.240	13.42
54.280	18.73
54.320	28.24
54.360	49.76
54.400	132.37
54.440	472.83
54.480	845.07
54.520	417.83
54.560	123.29
54.600	59.46
54.640	47.37
54.680	52.49
54.720	97.17
54.760	182.85
54.800	160.36
54.840	185.98
54.880	567.21
54.920	1296.34
54.960	877.27
55.000	354.51