File: app/XRD_data_set.UXD
; C:\DIFFDAT1\Dorothea\Richard\Neuer Ordner\191126_P1_MER_RS03_3d_150_unkalz_V57.raw(Diffrac Plus V1.01 file) converted by XCH V1.0
_FILEVERSION=2
_SAMPLE='191126_P1_MER_RS03_3d_150_unkalz_V57'
_SITE='Deutschland'
_USER='Administrator'
_ATTACHMENTS_CODE=0
_GONIOMETER_RADIUS=217.5
_FIXED_DIVSLIT=0.000000
_FIXED_SAMPLESLIT=0.000000
_FIXED_DETSLIT=10.39
_MONOCHROMATOR=0
; None
_THIN_FILM='N'
_BETA_FILTER='N'
_FIXED_ANTISLIT=6.970000
_ANALYZER_CODE=0
; None
_DATEMEASURED='26-Nov-2019 13:44:11'
_WL_UNIT='A'
_WL1=1.540600
_WL2=1.544390
_WL3=1.392220
_WLRATIO=0.500000
_ANODE='Cu'
; (Data for Range number 1)
_DRIVE='COUPLED'
_STEPTIME=398.004
_STEPSIZE=0.015259
_STEPMODE='C'
_START=5.000000
_THETA=2.500000
_2THETA=5.000000
_KHI=0.000000
_PHI=0.000000
_X=0.000000
_Y=0.000000
_Z=0.000000
_DIVERGENCE=0.298000
_ANTISCATTER=0.298000
_DETECTOR=5
_DETECTORSLIT='unkn'
_AUX1=0.000000
_AUX2=0.000000
_AUX3=0.000000
_TIMESTARTED=29
_TEMP_RATE=-1.000000
_TEMP_DELAY=-1.000000
_KV=35
_MA=40
_RANGE_WL=1.540600
_3DPLANE=0
_2THETACOUNTS
   5.0000      1645
   5.0458      1671
   5.0916      1558
   5.1373      1521
   5.1831      1680
   5.2289      1638
   5.2747      1580
   5.3204      1551
   5.3662      1576
   5.4120      1496
   5.4578      1467
   5.5035      1523
   5.5493      1514
   5.5951      1509
   5.6409      1419
   5.6867      1495
   5.7324      1465
   5.7782      1469
   5.8240      1411
   5.8698      1471
   5.9155      1497
   5.9613      1549
   6.0071      1469
   6.0529      1427
   6.0986      1501
   6.1444      1522
   6.1902      1556
   6.2360      1450
   6.2817      1525
   6.3275      1451
   6.3733      1392
   6.4191      1450
   6.4649      1282
   6.5106      1325
   6.5564      1306
   6.6022      1282
   6.6480      1298
   6.6937      1322
   6.7395      1262
   6.7853      1231
   6.8311      1237
   6.8768      1196
   6.9226      1178
   6.9684      1186
   7.0142      1195
   7.0600      1100
   7.1057      1153
   7.1515      1132
   7.1973      1147
   7.2431      1174
   7.2888      1107
   7.3346      1149
   7.3804      1122
   7.4262      1122
   7.4719      1084
   7.5177      1064
   7.5635      1059
   7.6093      1098
   7.6550      1074
   7.7008      1030
   7.7466      1058
   7.7924      1035
   7.8382      1081
   7.8839      1044
   7.9297      1058
   7.9755      1037
   8.0213      1055
   8.0670      1024
   8.1128      1080
   8.1586      1046
   8.2044      1000
   8.2501      1010
   8.2959      1039
   8.3417      1025
   8.3875      1115
   8.4333      1017
   8.4790      1109
   8.5248      1055
   8.5706      1104
   8.6164      1095
   8.6621      1123
   8.7079      1169
   8.7537      1271
   8.7995      1336
   8.8452      1410
   8.8910      1502
   8.9368      1484
   8.9826      1446
   9.0283      1397
   9.0741      1307
   9.1199      1210
   9.1657      1156
   9.2115      1112
   9.2572      1057
   9.3030      1028
   9.3488       989
   9.3946      1027
   9.4403      1045
   9.4861       952
   9.5319       925
   9.5777       956
   9.6234       967
   9.6692       982
   9.7150       971
   9.7608       905
   9.8066       973
   9.8523       904
   9.8981       903
   9.9439       939
   9.9897       923
  10.0354       902
  10.0812       926
  10.1270       926
  10.1728       956
  10.2185       963
  10.2643       962
  10.3101       969
  10.3559       956
  10.4017      1002
  10.4474       980
  10.4932       967
  10.5390      1045
  10.5848      1154
  10.6305      1161
  10.6763      1366
  10.7221      1577
  10.7679      1920
  10.8136      2535
  10.8594      3321
  10.9052      4406
  10.9510      4519
  10.9967      3972
  11.0425      2934
  11.0883      2061
  11.1341      1599
  11.1799      1273
  11.2256      1146
  11.2714      1065
  11.3172      1110
  11.3630      1028
  11.4087      1057
  11.4545       998
  11.5003       932
  11.5461       969
  11.5918       992
  11.6376       977
  11.6834       999
  11.7292       971
  11.7750       933
  11.8207       928
  11.8665       954
  11.9123       995
  11.9581       932
  12.0038       925
  12.0496      1026
  12.0954       990
  12.1412      1064
  12.1869      1092
  12.2327      1179
  12.2785      1331
  12.3243      1526
  12.3700      1795
  12.4158      2265
  12.4616      3034
  12.5074      4001
  12.5532      4998
  12.5989      5702
  12.6447      5536
  12.6905      4610
  12.7363      3351
  12.7820      2477
  12.8278      1830
  12.8736      1501
  12.9194      1299
  12.9651      1146
  13.0109      1008
  13.0567       957
  13.1025       910
  13.1483       809
  13.1940       851
  13.2398       800
  13.2856       821
  13.3314       790
  13.3771       770
  13.4229       776
  13.4687       797
  13.5145       791
  13.5602       768
  13.6060       690
  13.6518       721
  13.6976       792
  13.7433       729
  13.7891       674
  13.8349       688
  13.8807       689
  13.9265       693
  13.9722       698
  14.0180       713
  14.0638       691
  14.1096       677
  14.1553       706
  14.2011       707
  14.2469       685
  14.2927       661
  14.3384       722
  14.3842       647
  14.4300       670
  14.4758       679
  14.5216       685
  14.5673       669
  14.6131       676
  14.6589       668
  14.7047       650
  14.7504       626
  14.7962       651
  14.8420       598
  14.8878       669
  14.9335       673
  14.9793       648
  15.0251       629
  15.0709       638
  15.1167       635
  15.1624       614
  15.2082       627
  15.2540       688
  15.2998       654
  15.3455       672
  15.3913       691
  15.4371       655
  15.4829       661
  15.5286       655
  15.5744       601
  15.6202       680
  15.6660       629
  15.7117       614
  15.7575       690
  15.8033       646
  15.8491       617
  15.8949       677
  15.9406       647
  15.9864       648
  16.0322       679
  16.0780       696
  16.1237       692
  16.1695       724
  16.2153       731
  16.2611       764
  16.3068       790
  16.3526       857
  16.3984       886
  16.4442      1084
  16.4900      1219
  16.5357      1587
  16.5815      1928
  16.6273      2365
  16.6731      2666
  16.7188      2703
  16.7646      2513
  16.8104      2130
  16.8562      1704
  16.9019      1344
  16.9477      1175
  16.9935       973
  17.0393       860
  17.0850       870
  17.1308       794
  17.1766       763
  17.2224       783
  17.2682       776
  17.3139       752
  17.3597       779
  17.4055       777
  17.4513       825
  17.4970       818
  17.5428       963
  17.5886      1057
  17.6344      1401
  17.6801      1844
  17.7259      2583
  17.7717      3645
  17.8175      4413
  17.8633      4598
  17.9090      4491
  17.9548      3460
  18.0006      2240
  18.0464      1586
  18.0921      1265
  18.1379      1010
  18.1837       912
  18.2295       778
  18.2752       733
  18.3210       747
  18.3668       721
  18.4126       711
  18.4583       697
  18.5041       636
  18.5499       710
  18.5957       645
  18.6415       666
  18.6872       668
  18.7330       655
  18.7788       590
  18.8246       668
  18.8703       715
  18.9161       673
  18.9619       660
  19.0077       689
  19.0534       712
  19.0992       682
  19.1450       687
  19.1908       763
  19.2366       677
  19.2823       624
  19.3281       761
  19.3739       715
  19.4197       762
  19.4654       779
  19.5112       860
  19.5570       830
  19.6028       866
  19.6485       964
  19.6943      1087
  19.7401      1278
  19.7859      1430
  19.8317      1695
  19.8774      2104
  19.9232      2458
  19.9690      2806
  20.0148      2891
  20.0605      2705
  20.1063      2380
  20.1521      1954
  20.1979      1634
  20.2436      1400
  20.2894      1170
  20.3352      1116
  20.3810      1005
  20.4267       985
  20.4725       990
  20.5183       992
  20.5641       981
  20.6099      1045
  20.6556      1145
  20.7014      1319
  20.7472      1682
  20.7930      2013
  20.8387      2247
  20.8845      2356
  20.9303      2218
  20.9761      2114
  21.0218      1782
  21.0676      1511
  21.1134      1228
  21.1592      1086
  21.2050       965
  21.2507       830
  21.2965       816
  21.3423       818
  21.3881       722
  21.4338       730
  21.4796       682
  21.5254       715
  21.5712       679
  21.6169       769
  21.6627       786
  21.7085       876
  21.7543       947
  21.8000      1057
  21.8458      1184
  21.8916      1292
  21.9374      1222
  21.9832      1185
  22.0289       990
  22.0747       845
  22.1205       782
  22.1663       690
  22.2120       683
  22.2578       663
  22.3036       642
  22.3494       622
  22.3951       626
  22.4409       619
  22.4867       618
  22.5325       612
  22.5783       603
  22.6240       616
  22.6698       609
  22.7156       628
  22.7614       646
  22.8071       625
  22.8529       574
  22.8987       641
  22.9445       612
  22.9902       613
  23.0360       569
  23.0818       622
  23.1276       545
  23.1733       597
  23.2191       576
  23.2649       616
  23.3107       622
  23.3565       597
  23.4022       589
  23.4480       617
  23.4938       607
  23.5396       592
  23.5853       577
  23.6311       583
  23.6769       623
  23.7227       641
  23.7684       607
  23.8142       677
  23.8600       682
  23.9058       648
  23.9516       669
  23.9973       658
  24.0431       654
  24.0889       705
  24.1347       743
  24.1804       845
  24.2262       928
  24.2720      1065
  24.3178      1232
  24.3635      1351
  24.4093      1658
  24.4551      1736
  24.5009      1894
  24.5467      1737
  24.5924      1620
  24.6382      1388
  24.6840      1182
  24.7298       995
  24.7755       981
  24.8213       889
  24.8671       815
  24.9129       801
  24.9586       845
  25.0044       796
  25.0502       802
  25.0960       879
  25.1417       947
  25.1875       937
  25.2333       927
  25.2791       897
  25.3249       929
  25.3706       898
  25.4164       859
  25.4622       822
  25.5080       813
  25.5537       808
  25.5995       782
  25.6453       753
  25.6911       768
  25.7368       740
  25.7826       718
  25.8284       766
  25.8742       806
  25.9200       887
  25.9657       952
  26.0115      1085
  26.0573      1399
  26.1031      1417
  26.1488      1503
  26.1946      1429
  26.2404      1250
  26.2862      1121
  26.3319      1024
  26.3777       906
  26.4235       856
  26.4693       847
  26.5150       884
  26.5608       908
  26.6066       853
  26.6524       913
  26.6982      1001
  26.7439      1050
  26.7897      1092
  26.8355      1132
  26.8813      1297
  26.9270      1266
  26.9728      1279
  27.0186      1301
  27.0644      1333
  27.1101      1399
  27.1559      1602
  27.2017      1860
  27.2475      2225
  27.2933      2812
  27.3390      3626
  27.3848      4848
  27.4306      6449
  27.4764      8011
  27.5221      8765
  27.5679      8850
  27.6137      8581
  27.6595      8163
  27.7052      7133
  27.7510      5815
  27.7968      4768
  27.8426      3821
  27.8884      3310
  27.9341      3114
  27.9799      3128
  28.0257      3297
  28.0715      3820
  28.1172      4575
  28.1630      5528
  28.2088      6296
  28.2546      6855
  28.3003      6915
  28.3461      6678
  28.3919      5877
  28.4377      5024
  28.4834      4223
  28.5292      3362
  28.5750      2591
  28.6208      2118
  28.6666      1834
  28.7123      1554
  28.7581      1353
  28.8039      1282
  28.8497      1134
  28.8954      1148
  28.9412      1019
  28.9870       981
  29.0328      1006
  29.0785       902
  29.1243       985
  29.1701       934
  29.2159       895
  29.2617       895
  29.3074       916
  29.3532       868
  29.3990       877
  29.4448       871
  29.4905       877
  29.5363       926
  29.5821       920
  29.6279       981
  29.6736       949
  29.7194      1018
  29.7652      1065
  29.8110      1071
  29.8567      1105
  29.9025      1248
  29.9483      1247
  29.9941      1376
  30.0399      1488
  30.0856      1776
  30.1314      2130
  30.1772      2787
  30.2230      3740
  30.2687      4772
  30.3145      5448
  30.3603      5580
  30.4061      5528
  30.4518      5129
  30.4976      4587
  30.5434      3869
  30.5892      3000
  30.6350      2362
  30.6807      1892
  30.7265      1533
  30.7723      1277
  30.8181      1181
  30.8638      1038
  30.9096       976
  30.9554       960
  31.0012       909
  31.0469       803
  31.0927       798
  31.1385       798
  31.1843       810
  31.2300       780
  31.2758       800
  31.3216       790
  31.3674       797
  31.4132       770
  31.4589       843
  31.5047       794
  31.5505       846
  31.5963       759
  31.6420       720
  31.6878       833
  31.7336       824
  31.7794       842
  31.8251       848
  31.8709       853
  31.9167       922
  31.9625       862
  32.0083       921
  32.0540       961
  32.0998       981
  32.1456      1040
  32.1914      1127
  32.2371      1169
  32.2829      1312
  32.3287      1461
  32.3745      1525
  32.4202      1550
  32.4660      1673
  32.5118      1750
  32.5576      1774
  32.6034      1803
  32.6491      2020
  32.6949      2211
  32.7407      2522
  32.7865      3037
  32.8322      3461
  32.8780      3850
  32.9238      4150
  32.9696      4115
  33.0153      3944
  33.0611      3730
  33.1069      3388
  33.1527      3067
  33.1984      2663
  33.2442      2331
  33.2900      2085
  33.3358      1836
  33.3816      1699
  33.4273      1685
  33.4731      1753
  33.5189      1838
  33.5647      1897
  33.6104      2114
  33.6562      2081
  33.7020      2044
  33.7478      1900
  33.7935      1641
  33.8393      1425
  33.8851      1221
  33.9309      1032
  33.9767      1023
  34.0224       857
  34.0682       859
  34.1140       819
  34.1598       771
  34.2055       706
  34.2513       780
  34.2971       792
  34.3429       712
  34.3886       680
  34.4344       728
  34.4802       727
  34.5260       717
  34.5717       704
  34.6175       706
  34.6633       741
  34.7091       736
  34.7549       776
  34.8006       828
  34.8464       807
  34.8922       874
  34.9380       903
  34.9837       962
  35.0295      1053
  35.0753      1127
  35.1211      1379
  35.1668      1530
  35.2126      1779
  35.2584      2057
  35.3042      2321
  35.3500      2326
  35.3957      2311
  35.4415      2356
  35.4873      2165
  35.5331      2021
  35.5788      1796
  35.6246      1655
  35.6704      1356
  35.7162      1213
  35.7619      1102
  35.8077      1093
  35.8535      1115
  35.8993      1058
  35.9450       946
  35.9908       948
  36.0366       932
  36.0824       891
  36.1282       812
  36.1739       804
  36.2197       806
  36.2655       735
  36.3113       750
  36.3570       730
  36.4028       679
  36.4486       734
  36.4944       694
  36.5401       711
  36.5859       787
  36.6317       828
  36.6775       844
  36.7233       900
  36.7690       941
  36.8148       936
  36.8606      1063
  36.9064      1174
  36.9521      1287
  36.9979      1367
  37.0437      1384
  37.0895      1386
  37.1352      1365
  37.1810      1340
  37.2268      1243
  37.2726      1202
  37.3184      1148
  37.3641      1187
  37.4099      1168
  37.4557      1178
  37.5015      1281
  37.5472      1251
  37.5930      1131
  37.6388      1057
  37.6846      1054
  37.7303       879
  37.7761       874
  37.8219       820
  37.8677       841
  37.9134       786
  37.9592       828
  38.0050       807
  38.0508       808
  38.0966       846
  38.1423       929
  38.1881       875
  38.2339       920
  38.2797       956
  38.3254       982
  38.3712      1007
  38.4170       982
  38.4628       909
  38.5085       829
  38.5543       822
  38.6001       809
  38.6459       740
  38.6917       704
  38.7374       664
  38.7832       652
  38.8290       587
  38.8748       633
  38.9205       589
  38.9663       585
  39.0121       527
  39.0579       590
  39.1036       570
  39.1494       544
  39.1952       533
  39.2410       533
  39.2867       545
  39.3325       550
  39.3783       586
  39.4241       570
  39.4699       596
  39.5156       601
  39.5614       547
  39.6072       577
  39.6530       557
  39.6987       598
  39.7445       534
  39.7903       533
  39.8361       564
  39.8818       540
  39.9276       554
  39.9734       543
  40.0192       561
  40.0650       541
  40.1107       559
  40.1565       590
  40.2023       590
  40.2481       568
  40.2938       516
  40.3396       510
  40.3854       570
  40.4312       584
  40.4769       610
  40.5227       567
  40.5685       558
  40.6143       580
  40.6600       587
  40.7058       539
  40.7516       583
  40.7974       578
  40.8432       618
  40.8889       616
  40.9347       661
  40.9805       648
  41.0263       718
  41.0720       727
  41.1178       770
  41.1636       791
  41.2094       825
  41.2551       860
  41.3009       940
  41.3467      1018
  41.3925      1093
  41.4383      1230
  41.4840      1230
  41.5298      1201
  41.5756      1152
  41.6214      1173
  41.6671      1151
  41.7129      1154
  41.7587      1139
  41.8045      1106
  41.8502      1102
  41.8960      1006
  41.9418      1041
  41.9876       975
  42.0334       996
  42.0791       924
  42.1249       863
  42.1707       871
  42.2165       822
  42.2622       757
  42.3080       705
  42.3538       633
  42.3996       666
  42.4453       618
  42.4911       599
  42.5369       619
  42.5827       583
  42.6284       559
  42.6742       545
  42.7200       566
  42.7658       565
  42.8116       533
  42.8573       535
  42.9031       485
  42.9489       480
  42.9947       502
  43.0404       514
  43.0862       501
  43.1320       454
  43.1778       538
  43.2235       489
  43.2693       500
  43.3151       475
  43.3609       495
  43.4067       515
  43.4524       468
  43.4982       504
  43.5440       477
  43.5898       482
  43.6355       489
  43.6813       523
  43.7271       565
  43.7729       542
  43.8186       567
  43.8644       593
  43.9102       589
  43.9560       610
  44.0017       585
  44.0475       569
  44.0933       566
  44.1391       543
  44.1849       566
  44.2306       614
  44.2764       572
  44.3222       567
  44.3680       545
  44.4137       552
  44.4595       527
  44.5053       510
  44.5511       495
  44.5968       463
  44.6426       514
  44.6884       490
  44.7342       497
  44.7800       493
  44.8257       473
  44.8715       491
  44.9173       468
  44.9631       502
  45.0088       510
  45.0546       492
  45.1004       496
  45.1462       487
  45.1919       526
  45.2377       503
  45.2835       514
  45.3293       553
  45.3750       570
  45.4208       575
  45.4666       604
  45.5124       572
  45.5582       645
  45.6039       584
  45.6497       614
  45.6955       606
  45.7413       632
  45.7870       621
  45.8328       632
  45.8786       632
  45.9244       634
  45.9701       622
  46.0159       716
  46.0617       765
  46.1075       716
  46.1533       751
  46.1990       769
  46.2448       721
  46.2906       737
  46.3364       724
  46.3821       682
  46.4279       666
  46.4737       694
  46.5195       660
  46.5652       616
  46.6110       570
  46.6568       549
  46.7026       506
  46.7484       533
  46.7941       484
  46.8399       463
  46.8857       451
  46.9315       494
  46.9772       407
  47.0230       452
  47.0688       446
  47.1146       462
  47.1603       458
  47.2061       471
  47.2519       512
  47.2977       536
  47.3434       512
  47.3892       552
  47.4350       572
  47.4808       670
  47.5266       607
  47.5723       678
  47.6181       671
  47.6639       688
  47.7097       605
  47.7554       564
  47.8012       593
  47.8470       562
  47.8928       521
  47.9385       526
  47.9843       524
  48.0301       505
  48.0759       467
  48.1217       464
  48.1674       454
  48.2132       461
  48.2590       459
  48.3048       466
  48.3505       434
  48.3963       425
  48.4421       525
  48.4879       465
  48.5336       487
  48.5794       565
  48.6252       549
  48.6710       571
  48.7167       696
  48.7625       740
  48.8083       856
  48.8541       874
  48.8999       887
  48.9456       825
  48.9914       868
  49.0372       768
  49.0830       787
  49.1287       727
  49.1745       759
  49.2203       722
  49.2661       729
  49.3118       825
  49.3576       924
  49.4034       889
  49.4492       836
  49.4950       827
  49.5407       802
  49.5865       811
  49.6323       749
  49.6781       660
  49.7238       687
  49.7696       596
  49.8154       579
  49.8612       579
  49.9069       551
  49.9527       518
  49.9985       522
  50.0443       478
  50.0900       497
  50.1358       448
  50.1816       487
  50.2274       452
  50.2732       430
  50.3189       478
  50.3647       435
  50.4105       451
  50.4563       443
  50.5020       475
  50.5478       460
  50.5936       450
  50.6394       445
  50.6851       457
  50.7309       464
  50.7767       498
  50.8225       534
  50.8683       517
  50.9140       579
  50.9598       572
  51.0056       612
  51.0514       631
  51.0971       700
  51.1429       807
  51.1887       898
  51.2345       939
  51.2802       991
  51.3260      1127
  51.3718      1118
  51.4176      1184
  51.4634      1252
  51.5091      1247
  51.5549      1327
  51.6007      1266
  51.6465      1286
  51.6922      1244
  51.7380      1113
  51.7838      1045
  51.8296       988
  51.8753       947
  51.9211       855
  51.9669       839
  52.0127       745
  52.0584       675
  52.1042       667
  52.1500       589
  52.1958       590
  52.2416       575
  52.2873       567
  52.3331       572
  52.3789       548
  52.4247       617
  52.4704       582
  52.5162       593
  52.5620       619
  52.6078       616
  52.6535       679
  52.6993       690
  52.7451       688
  52.7909       708
  52.8367       676
  52.8824       767
  52.9282       820
  52.9740       770
  53.0198       946
  53.0655       948
  53.1113      1028
  53.1571      1228
  53.2029      1244
  53.2486      1218
  53.2944      1271
  53.3402      1256
  53.3860      1140
  53.4317      1169
  53.4775      1086
  53.5233      1074
  53.5691       977
  53.6149      1029
  53.6606       903
  53.7064       918
  53.7522       782
  53.7980       777
  53.8437       716
  53.8895       655
  53.9353       691
  53.9811       577
  54.0268       588
  54.0726       589
  54.1184       550
  54.1642       526
  54.2100       537
  54.2557       550
  54.3015       503
  54.3473       549
  54.3931       557
  54.4388       594
  54.4846       603
  54.5304       527
  54.5762       592
  54.6219       595
  54.6677       641
  54.7135       635
  54.7593       713
  54.8050       859
  54.8508       921
  54.8966      1028
  54.9424      1036
  54.9882      1102
  55.0034      1094